File: FrgTools/Example Notebooks/Cyclic Voltammetry Analysis/Data/180_11.4_FTO_02_CV_C02.txt
EC-Lab ASCII FILE
Nb header lines : 54

Cyclic Voltammetry

Run on channel : 2 (SN 2827)
User :
Electrode connection : standard
Ewe ctrl range : min = -2.50 V, max = 2.50 V
Ewe,I filtering : 50 kHz
Channel : Floating
Acquisition started on : 09/05/2019 17:27:53
Saved on :
	File : 180_11.4_FTO_02_CV_C02.mpr
	Directory : C:\Data\Justin\09_04_2019_pvd_SnOxCV\
	Host : 192.109.209.127
Device : VSP-300 (SN 0229)
Address : 192.109.209.128
EC-Lab for windows v10.40 (software)
Internet server v10.40 (firmware)
Command interpretor v10.40 (firmware)
Electrode material :
Initial state :
Electrolyte :
Comments :
Cable : standard
Reference electrode : SCE Saturated Calomel Electrode (0.241 V)
Electrode surface area : 0.001 cm²
Characteristic mass : 0.001 g
Equivalent Weight : 0.000 g/eq.
Density : 0.000 g/cm3
Ei (V)              0.000
vs.                 Eoc
dE/dt               20.000
dE/dt unit          mV/s
E1 (V)              1.500
vs.                 Ref
Step percent        50
N                   10
E range min (V)     -2.500
E range max (V)     2.500
I Range             Auto
I Range min         Unset
I Range max         Unset
I Range init        Unset
Bandwidth           8
E2 (V)              -0.600
vs.                 Ref
nc cycles           3
Reverse Scan        1
Ef (V)              0.000
vs.                 Eoc

mode	ox/red	error	control changes	counter inc.	time/s	control/V	Ewe/V	<I>/mA	cycle number	(Q-Qo)/C	Rcmp/Ohm	P/W
2	1	0	0	0	3.6376	0.192089	0.19222	-0.000626125	1	0	22.8278	1.20353e-07
2	1	0	1	0	5.0151	0.219639	0.219887	0.000125806	1	1.05787e-07	22.8278	2.76632e-08
2	1	0	1	0	6.4151	0.247639	0.248133	0.000222457	1	3.77831e-07	22.8278	5.51989e-08
2	1	0	1	0	7.8151	0.275639	0.275991	0.000352366	1	8.08848e-07	22.8278	9.72498e-08
2	1	0	1	0	9.2151	0.303639	0.303991	0.000508605	1	1.44028e-06	22.8278	1.54611e-07
2	1	0	1	0	10.6151	0.331639	0.331976	0.000695916	1	2.31596e-06	22.8278	2.31027e-07
2	1	0	1	0	12.0151	0.359639	0.359958	0.000922394	1	3.47929e-06	22.8278	3.32023e-07
2	1	0	1	0	13.4151	0.387639	0.387993	0.00117115	1	4.97091e-06	22.8278	4.54398e-07
2	1	0	1	0	14.8151	0.415639	0.415891	0.0014482	1	6.83211e-06	22.8278	6.02293e-07
2	1	0	1	0	16.2151	0.443639	0.444065	0.00176537	1	9.10821e-06	22.8278	7.83941e-07
2	1	0	1	0	17.6151	0.471639	0.472135	0.00211334	1	1.18508e-05	22.8278	9.97782e-07
2	1	0	1	0	19.0151	0.499639	0.499966	0.00251741	1	1.51226e-05	22.8278	1.25862e-06
2	1	0	1	0	20.4151	0.527639	0.527853	0.00296775	1	1.89899e-05	22.8278	1.56654e-06
2	1	0	1	0	21.8151	0.555639	0.555885	0.00347333	1	2.35252e-05	22.8278	1.93077e-06
2	1	0	1	0	23.2151	0.583639	0.584045	0.00402498	1	2.88028e-05	22.8278	2.35077e-06
2	1	0	1	0	24.6151	0.611639	0.612	0.00463381	1	3.48975e-05	22.8278	2.83589e-06
2	1	0	1	0	26.0151	0.639639	0.63997	0.00527758	1	4.18658e-05	22.8278	3.37749e-06
2	1	0	1	0	27.4151	0.667639	0.667953	0.00595183	1	4.97578e-05	22.8278	3.97554e-06
2	1	0	1	0	28.8151	0.695639	0.695769	0.00665419	1	5.86138e-05	22.8278	4.62978e-06
2	1	0	1	0	30.2151	0.723639	0.723977	0.00735949	1	6.8458e-05	22.8278	5.3281e-06
2	1	0	1	0	31.6151	0.751639	0.751944	0.00806473	1	7.92906e-05	22.8278	6.06423e-06
2	1	0	1	0	33.0151	0.779639	0.779954	0.00877902	1	9.11112e-05	22.8278	6.84723e-06
2	1	0	1	0	34.4151	0.807639	0.808064	0.00949288	1	0.000103945	22.8278	7.67085e-06
2	1	0	0	0	35.8501	0.836339	0.836715	0.0101681	1	0.000118116	22.8278	8.50784e-06
2	1	0	0	0	37.2501	0.864339	0.864751	0.0107859	1	0.000132858	22.8278	9.32712e-06
2	1	0	0	0	38.6501	0.892339	0.892669	0.0113709	1	0.000148466	22.8278	1.01504e-05
2	1	0	0	0	40.0501	0.920339	0.92059	0.0119093	1	0.00016482	22.8278	1.09636e-05
2	1	0	0	0	41.4501	0.948339	0.9487409	0.0124156	1	0.000181904	22.8278	1.17792e-05
2	1	0	0	0	42.8501	0.976339	0.976668	0.0128585	1	0.0001996543	22.8278	1.25584e-05
2	1	0	1	0	44.2503	1.00434	1.00471	0.0132165	1	0.000217979	22.8278	1.32788e-05
2	1	0	0	0	45.6505	1.03235	1.03247	0.0135604	1	0.000236784	22.8278	1.40007e-05
2	1	0	0	0	47.0509	1.06036	1.06065	0.0139022	1	0.000256068	22.8278	1.47454e-05
2	1	0	0	0	48.4522	1.08838	1.08878	0.0142252	1	0.00027583	22.8278	1.54881e-05
2	1	0	0	0	49.8529	1.11639	1.11675	0.0145222	1	0.000296025	22.8278	1.62177e-05
2	1	0	1	0	51.2539	1.14442	1.14473	0.0147965	1	0.000316617	22.8278	1.69381e-05
2	1	0	1	0	52.6547	1.17243	1.17301	0.0150788	1	0.0003376	22.8278	1.76877e-05
2	1	0	1	0	54.0555	1.20045	1.20091	0.0153805	1	0.000358979	22.8278	1.84707e-05
2	1	0	0	0	55.4564	1.22846	1.22894	0.0156953	1	0.000380792	22.8278	1.92885e-05
2	1	0	0	0	56.8573	1.25648	1.25684	0.015965	1	0.000403025	22.8278	2.00654e-05
2	1	0	0	0	58.2581	1.2845	1.28491	0.0162552	1	0.000425641	22.8278	2.08865e-05
2	1	0	1	0	59.6447	1.31223	1.31266	0.016552	1	0.000448446	22.8278	2.17271e-05
2	1	0	1	0	61.0455	1.34025	1.34079	0.0168582	1	0.000471904	22.8278	2.26032e-05
2	1	0	1	0	62.4463	1.36826	1.36848	0.0172187	1	0.000495833	22.8278	2.35634e-05
2	1	0	1	0	63.8475	1.39629	1.39657	0.0176047	1	0.000520284	22.8278	2.45863e-05
2	1	0	0	0	65.2433	1.4242	1.42451	0.0180316	1	0.000545209	22.8278	2.56861e-05
2	1	0	0	0	66.6445	1.45223	1.45263	0.0186027	1	0.000570907	22.8278	2.70228e-05
2	1	0	1	0	68.0407	1.48015	1.48056	0.0193588	1	0.000597435	22.8278	2.86618e-05
2	0	0	0	0	69.3133	1.49444	1.49486	0.0188177	1	0.000622439	22.8278	2.81298e-05
2	0	0	0	0	70.7133	1.46644	1.4669	0.0149222	1	0.000645773	22.8278	2.18895e-05
2	0	0	0	0	72.1133	1.43844	1.43878	0.0123584	1	0.00066471	22.8278	1.77811e-05
2	0	0	0	0	73.5133	1.41044	1.4108	0.0105104	1	0.000680595	22.8278	1.48281e-05
2	0	0	0	0	74.9133	1.38244	1.38283	0.00909875	1	0.000694223	22.8278	1.2582e-05
2	0	0	0	0	76.3133	1.35444	1.35493	0.00796329	1	0.000706085	22.8278	1.07897e-05
2	0	0	0	0	77.7133	1.32644	1.32704	0.00704766	1	0.000716519	22.8278	9.35252e-06
2	0	0	0	0	79.1133	1.29844	1.29864	0.00629223	1	0.000725787	22.8278	8.17134e-06
2	0	0	0	0	80.5133	1.27044	1.27081	0.00564148	1	0.000734072	22.8278	7.16923e-06
2	0	0	0	0	81.9133	1.24244	1.24282	0.00509312	1	0.000741524	22.8278	6.32983e-06
2	0	0	1	0	83.3483	1.21374	1.21396	0.0045651	1	0.000748397	22.8278	5.54187e-06
2	0	0	1	0	84.7483	1.18574	1.18599	0.00414511	1	0.000754458	22.8278	4.91606e-06
2	0	0	1	0	86.1483	1.15774	1.15828	0.00377045	1	0.000759963	22.8278	4.36724e-06
2	0	0	1	0	87.5483	1.12974	1.13009	0.00343376	1	0.000764967	22.8278	3.88045e-06
2	0	0	1	0	88.9483	1.10174	1.10206	0.00313457	1	0.000769529	22.8278	3.45448e-06
2	0	0	1	0	90.3483	1.07374	1.07411	0.00286886	1	0.0007737	22.8278	3.08146e-06
2	0	0	1	0	91.7483	1.04574	1.04598	0.00262438	1	0.000777511	22.8278	2.74505e-06
2	0	0	1	0	93.1483	1.01774	1.01823	0.00240186	1	0.000780993	22.8278	2.44565e-06
2	0	0	1	0	94.5483	0.989735	0.990272	0.00219861	1	0.000784177	22.8278	2.17722e-06
2	0	0	1	0	95.9483	0.961736	0.962159	0.00200549	1	0.000787084	22.8278	1.9296e-06
2	0	0	1	0	97.3483	0.933735	0.934108	0.00182928	1	0.000789736	22.8278	1.70874e-06
2	0	0	1	0	98.7483	0.905735	0.906063	0.00166539	1	0.000792148	22.8278	1.50895e-06
2	0	0	1	0	100.1483	0.877736	0.87816	0.00151457	1	0.000794341	22.8278	1.33004e-06
2	0	0	1	0	101.5483	0.849735	0.849939	0.00137395	1	0.000796328	22.8278	1.16777e-06
2	0	0	1	0	102.9483	0.821736	0.822178	0.0012386	1	0.000798124	22.8278	1.01835e-06
2	0	0	1	0	104.3483	0.793736	0.794199	0.00111484	1	0.000799739	22.8278	8.85406e-07
2	0	0	1	0	105.7483	0.765736	0.76623	0.00099829	1	0.000801184	22.8278	7.6492e-07
2	0	0	1	0	107.1483	0.737736	0.738032	0.000890121	1	0.000802471	22.8278	6.56937e-07
2	0	0	1	0	108.5483	0.709736	0.710253	0.000788762	1	0.00080361	22.8278	5.6022e-07
2	0	0	1	0	109.9483	0.681736	0.682105	0.000698523	1	0.000804615	22.8278	4.76466e-07
2	0	0	1	0	111.3483	0.653736	0.65414	0.000611248	1	0.000805496	22.8278	3.99842e-07
2	0	0	1	0	112.7483	0.625736	0.626259	0.000532212	1	0.000806264	22.8278	3.33303e-07
2	0	0	1	0	114.1483	0.597736	0.597984	0.00046579	1	0.00080693	22.8278	2.785346E-007
2	0	0	1	0	115.5483	0.569736	0.570108	0.000399805	1	0.000807499	22.8278	2.27932e-07
2	0	0	1	0	116.9483	0.541736	0.542131	0.00033798	1	0.000807978	22.8278	1.8323e-07
2	0	0	1	0	118.3483	0.513736	0.513968	0.000282729	1	0.000808375	22.8278	1.45314e-07
2	0	0	0	0	119.7833	0.485036	0.485204	0.000207433	1	0.000808707	22.8278	1.00647e-07
2	0	0	0	0	121.1833	0.457036	0.457436	0.000157503	1	0.000808954	22.8278	7.20478e-08
2	0	0	0	0	122.5833	0.429036	0.429353	0.000112304	1	0.000809133	22.8278	4.82182e-08
2	0	0	0	0	123.9833	0.401036	0.401465	6.93749e-05	1	0.000809251	22.8278	2.78516e-08
2	0	0	0	0	125.3833	0.373036	0.373363	2.72424e-05	1	0.00080931	22.8278	1.01713e-08
2	0	0	0	0	126.7833	0.345036	0.345273	-1.23072e-05	1	0.000809312	22.8278	4.24936e-09
2	0	0	0	0	128.1833	0.317036	0.31729	-5.4555e-05	1	0.000809257	22.8278	1.73097e-08
2	0	0	0	0	129.5833	0.289036	0.289521	-0.000100791	1	0.00080914	22.8278	2.91811e-08
2	0	0	0	0	130.9833	0.261036	0.261206	-0.000147646	1	0.000808959	22.8278	3.85661e-08
2	0	0	0	0	132.3833	0.233036	0.233374	-0.000192862	1	0.000808713	22.8278	4.50089e-08
2	0	0	0	0	133.7833	0.205036	0.205357	-0.000235183	1	0.000808407	22.8278	4.829662E-008
2	0	0	0	0	135.1833	0.177036	0.177356	-0.000277955	1	0.00080804	22.8278	4.9297e-08
2	0	0	0	0	136.5833	0.149036	0.14934	-0.000326569	1	0.00080761	22.8278	4.87699e-08
2	0	0	0	0	137.9833	0.121036	0.121467	-0.000383008	1	0.000807107	22.8278	4.6523e-08
2	0	0	0	0	139.3833	0.0930357	0.0934383	-0.000453229	1	0.000806516	22.8278	4.2349e-08
2	0	0	0	0	140.7833	0.0650357	0.0655142	-0.00054114	1	0.000805816	22.8278	3.54524e-08
2	0	0	0	0	142.1833	0.0370357	0.0375042	-0.000650475	1	0.000804979	22.8278	2.43955e-08
2	0	0	0	0	143.5833	0.00903571	0.00948252	-0.000792272	1	0.000803965	22.8278	7.51274e-09
2	0	0	0	0	144.9833	-0.0189643	-0.0187163	-0.000977653	1	0.000802724	22.8278	1.82981e-08
2	0	0	1	0	146.4183	-0.0476643	-0.0474927	-0.0011758	1	0.000801148	22.8278	5.5842e-08
2	0	0	1	0	147.8183	-0.0756643	-0.075227	-0.00149032	1	0.000799222	22.8278	1.12112e-07
2	0	0	1	0	149.2183	-0.103664	-0.103323	-0.00191576	1	0.000796785	22.8278	1.97942e-07
2	0	0	1	0	150.6183	-0.131664	-0.131236	-0.00249695	1	0.000793642	22.8278	3.27689e-07
2	0	0	1	0	152.0183	-0.159664	-0.159148	-0.00332303	1	0.000789521	22.8278	5.28853e-07
2	0	0	1	0	153.4183	-0.187664	-0.187389	-0.00450989	1	0.000784008	22.8278	8.45102e-07
2	0	0	1	0	154.8183	-0.215664	-0.215165	-0.00618518	1	0.000776496	22.8278	1.33083e-06
2	0	0	1	0	156.2183	-0.243664	-0.2433144	-0.00859373	1	0.00076615	22.8278	2.09098e-06
2	0	0	0	0	157.6533	-0.272364	-0.271962	-0.0120408	1	0.000751382	22.8278	3.27463e-06
2	0	0	0	0	159.0533	-0.300364	-0.299914	-0.0166122	1	0.000731373	22.8278	4.98224e-06
2	0	0	0	0	160.4533	-0.328364	-0.327926	-0.0224625	1	0.000704039	22.8278	7.36604e-06
2	0	0	0	0	161.8533	-0.356364	-0.356115	-0.0292996	1	0.000667738	22.8278	1.0434e-05
2	0	0	0	0	163.2533	-0.384364	-0.383954	-0.0361712	1	0.000621717	22.8278	1.38881e-05
2	0	0	0	0	164.6533	-0.412364	-0.412009	-0.0417819	1	0.000566831	22.8278	1.72145e-05
2	0	0	0	0	166.0533	-0.440364	-0.440101	-0.045742	1	0.00050521	22.8278	2.01311e-05
2	0	0	0	0	167.4533	-0.468364	-0.467945	-0.0483392	1	0.000439053	22.8278	2.26201e-05
2	0	0	0	0	168.8533	-0.496364	-0.496015	-0.0497915	1	0.000370101	22.8278	2.46973e-05
2	0	0	0	0	170.2533	-0.524364	-0.523947	-0.0501655	1	0.000299813	22.8278	2.62841e-05
2	0	0	0	0	171.6533	-0.552364	-0.551988	-0.0493281	1	0.000229904	22.8278	2.72285e-05
2	0	0	1	0	173.0531	-0.58036	-0.579709	-0.0475184	1	0.000161893	22.8278	2.75468e-05
2	1	0	1	1	174.3607	-0.593501	-0.593093	-0.0399919	1	0.000102136	22.8278	2.37189e-05
2	1	0	1	1	175.7607	-0.565501	-0.565166	-0.029799	1	5.43313e-05	22.8278	1.68414e-05
2	1	0	1	1	177.1607	-0.537501	-0.537116	-0.0231755	1	1.75674e-05	22.8278	1.24479e-05
2	1	0	1	1	178.5607	-0.509501	-0.509119	-0.0176647	1	-1.08032e-05	22.8278	8.99345e-06
2	1	0	1	1	179.9607	-0.481501	-0.481038	-0.0129398	1	-3.2025e-05	22.8278	6.22454e-06
2	1	0	1	1	181.3607	-0.453501	-0.453085	-0.00906153	1	-4.72428e-05	22.8278	4.10564e-06
2	1	0	1	1	182.7607	-0.425501	-0.425015	-0.00603845	1	-5.76296e-05	22.8278	2.56643e-06
2	1	0	0	1	184.1957	-0.396801	-0.396528	-0.00385054	1	-6.45349e-05	22.8278	1.52685e-06
2	1	0	0	1	185.5957	-0.368801	-0.368437	-0.00242587	1	-6.87698e-05	22.8278	8.93779e-07
2	1	0	0	1	186.9957	-0.340801	-0.340465	-0.00156293	1	-7.14329e-05	22.8278	5.32122e-07
2	1	0	0	1	188.3957	-0.312801	-0.312298	-0.00103914	1	-7.31463e-05	22.8278	3.24522e-07
2	1	0	0	1	189.7957	-0.284801	-0.284296	-0.000720499	1	-7.42891e-05	22.8278	2.04835e-07
2	1	0	0	1	191.1957	-0.256801	-0.2563124	-0.000518125	1	-7.50763e-05	22.8278	1.32802e-07
2	1	0	0	1	192.5957	-0.228801	-0.228326	-0.000377695	1	-7.5631e-05	22.8278	8.62376e-08
2	1	0	1	1	194.0307	-0.200101	-0.199848	-0.000231672	1	-7.60251e-05	22.8278	4.62991e-08
2	1	0	1	1	195.4307	-0.172101	-0.171652	-0.000149832	1	-7.62809e-05	22.8278	2.5719e-08
2	1	0	1	1	196.8307	-0.144101	-0.143679	-7.98801e-05	1	-7.64314e-05	22.8278	1.14771e-08
2	1	0	1	1	198.2307	-0.116101	-0.115631	-1.91806e-05	1	-7.64913e-05	22.8278	2.21788e-09
2	1	0	1	1	199.6307	-0.0881005	-0.08769	3.38773e-05	1	-7.64717e-05	22.8278	2.9707e-09
2	1	0	1	1	201.0307	-0.0601006	-0.0595893	8.05376e-05	1	-7.63824e-05	22.8278	4.79918e-09
2	1	0	1	1	202.4307	-0.0321005	-0.0318178	0.000124712	1	-7.62297e-05	22.8278	3.96807e-09
2	1	0	1	1	203.8307	-0.00410054	-0.00376105	0.000166917	1	-7.6017e-05	22.8278	6.27783e-10
2	1	0	1	1	205.2307	0.0238995	0.0243186	0.000206612	1	-7.57465e-05	22.8278	5.02451e-09
2	1	0	1	1	206.6307	0.0518994	0.0523467	0.000247694	1	-7.54192e-05	22.8278	1.2966e-08
2	1	0	1	1	208.0307	0.0798994	0.0803645	0.000286679	1	-7.50351e-05	22.8278	2.30388e-08
2	1	0	1	1	209.4307	0.107899	0.108355	0.000326753	1	-7.45962e-05	22.8278	3.54055e-08
2	1	0	1	1	210.8307	0.135899	0.136092	0.000364487	1	-7.41037e-05	22.8278	4.96037e-08
2	1	0	1	1	212.2307	0.163899	0.16415	0.000399159	1	-7.35595e-05	22.8278	6.5522e-08
2	1	0	1	1	213.6082	0.191449	0.191681	0.000448781	1	-7.29761e-05	22.8278	8.6023e-08
2	1	0	1	1	214.9407	0.2180994	0.218445	0.000469053	2	-7.23672e-05	22.8278	1.02462e-07
2	1	0	1	1	216.3407	0.246099	0.246439	0.000507841	2	-7.16784e-05	22.8278	1.25152e-07
2	1	0	1	1	217.7407	0.274099	0.274356	0.000548608	2	-7.09333e-05	22.8278	1.50514e-07
2	1	0	1	1	219.1407	0.302099	0.302418	0.000592803	2	-7.01283e-05	22.8278	1.79274e-07
2	1	0	1	1	220.5407	0.330099	0.330264	0.000641219	2	-6.92578e-05	22.8278	2.11772e-07
2	1	0	1	1	221.9407	0.358099	0.358442	0.000693917	2	-6.83169e-05	22.8278	2.48729e-07
2	1	0	1	1	223.3407	0.386099	0.386442	0.000750088	2	-6.73008e-05	22.8278	2.89866e-07
2	1	0	1	1	224.7407	0.414099	0.414445	0.000811151	2	-6.62022e-05	22.8278	3.36178e-07
2	1	0	1	1	226.1407	0.442099	0.442536	0.000880282	2	-6.50126e-05	22.8278	3.89556e-07
2	1	0	1	1	227.5407	0.470099	0.470636	0.000953718	2	-6.3723e-05	22.8278	4.48855e-07
2	1	0	0	1	228.9757	0.498799	0.499002	0.00101985	2	-6.22831e-05	22.8278	5.08908e-07
2	1	0	0	1	230.3757	0.526799	0.5269925	0.00110881	2	-6.07565e-05	22.8278	5.84333e-07
2	1	0	0	1	231.7757	0.554799	0.555034	0.00121068	2	-5.90951e-05	22.8278	6.71968e-07
2	1	0	0	1	233.1757	0.582799	0.583199	0.00132682	2	-5.72858e-05	22.8278	7.73802e-07
2	1	0	0	1	234.5757	0.610799	0.611172	0.00144317	2	-5.53149e-05	22.8278	8.82027e-07
2	1	0	0	1	235.9757	0.638799	0.639242	0.00156769	2	-5.31709e-05	22.8278	1.00213e-06
2	1	0	0	1	237.3757	0.666799	0.667035	0.00170517	2	-5.0842e-05	22.8278	1.13741e-06
2	1	0	0	1	238.7757	0.694799	0.69512	0.00185224	2	-4.83164e-05	22.8278	1.28753e-06
2	1	0	0	1	240.1757	0.722799	0.723129	0.00200374	2	-4.55819e-05	22.8278	1.44896e-06
2	1	0	0	1	241.5757	0.750799	0.751289	0.00216826	2	-4.26259e-05	22.8278	1.62899e-06
2	1	0	0	1	242.9757	0.778799	0.779081	0.00234767	2	-3.94324e-05	22.8278	1.82903e-06
2	1	0	0	1	244.3757	0.806799	0.807316	0.00252751	2	-3.59894e-05	22.8278	2.0405e-06
2	1	0	0	1	245.7757	0.834799	0.835023	0.0027235	2	-3.228e-05	22.8278	2.27418e-06
2	1	0	0	1	247.1757	0.862799	0.863132	0.00293339	2	-2.82874e-05	22.8278	2.53191e-06
2	1	0	0	1	248.5757	0.890799	0.891172	0.00315286	2	-2.39929e-05	22.8278	2.80974e-06
2	1	0	0	1	249.9757	0.918799	0.919083	0.00339121	2	-1.93766e-05	22.8278	3.11681e-06
2	1	0	0	1	251.3757	0.946799	0.947192	0.00364323	2	-1.44197e-05	22.8278	3.45084e-06
2	1	0	0	1	252.7757	0.974799	0.975386	0.00390562	2	-9.10365e-06	22.8278	3.80949e-06
2	1	0	0	1	254.1758	1.0028	1.00308	0.00418424	2	-3.40825e-06	22.8278	4.19715e-06
2	1	0	0	1	255.5768	1.03082	1.03113	0.00447373	2	2.68921e-06	22.8278	4.61299e-06
2	1	0	1	1	256.9776	1.05884	1.0593	0.00478076	2	9.20308e-06	22.8278	5.06426e-06
2	1	0	0	1	258.3777	1.08684	1.08714	0.00509581	2	1.61463e-05	22.8278	5.53988e-06
2	1	0	0	1	259.7789	1.11486	1.11512	0.0054274	2	2.35497e-05	22.8278	6.05221e-06
2	1	0	0	1	261.1801	1.14289	1.14332	0.00577837	2	3.14275e-05	22.8278	6.60652e-06
2	1	0	1	1	262.5803	1.17089	1.17147	0.00613812	2	3.97965e-05	22.8278	7.1906e-06
2	1	0	1	1	263.9807	1.1989	1.19918	0.00652169	2	4.86968e-05	22.8278	7.82068e-06
2	1	0	0	1	265.3809	1.2269	1.22726	0.00691999	2	5.81405e-05	22.8278	8.49266e-06
2	1	0	1	1	266.7816	1.25492	1.25529	0.00734574	2	6.81626e-05	22.8278	9.22101e-06
2	1	0	0	1	268.1829	1.28294	1.28338	0.00779513	2	7.88014e-05	22.8278	1.00041e-05
2	1	0	0	1	269.5837	1.31096	1.3111	0.00827154	2	9.008505E-005	22.8278	1.08448e-05
2	1	0	1	1	270.9843	1.33897	1.33936	0.00880395	2	0.000102072	22.8278	1.17917e-05
2	1	0	1	1	272.3851	1.36699	1.36723	0.009387	2	0.000114838	22.8278	1.28342e-05
2	1	0	0	1	273.8213	1.39571	1.39608	0.010076	2	0.000128855	22.8278	1.40669e-05
2	1	0	0	1	275.2221	1.42373	1.42404	0.010859	2	0.000143556	22.8278	1.54637e-05
2	1	0	1	1	276.6236	1.45176	1.45213	0.0118068	2	0.000159473	22.8278	1.7145e-05
2	1	0	0	1	278.0150	1.47958	1.48002	0.013004	2	0.000176751	22.8278	1.92462e-05
2	0	0	1	1	279.3159	1.49438	1.49481	0.0132237	2	0.000194411	22.8278	1.97669e-05
2	0	0	1	1	280.7159	1.46638	1.46677	0.0105447	2	0.000210818	22.8278	1.54667e-05
2	0	0	1	1	282.1159	1.43838	1.43873	0.00881211	2	0.000224238	22.8278	1.26782e-05
2	0	0	1	1	283.5159	1.41038	1.41064	0.00756347	2	0.000235604	22.8278	1.06693e-05
2	0	0	1	1	284.9159	1.38238	1.38263	0.0065894	2	0.000245427	22.8278	9.11068e-06
2	0	0	1	1	286.3159	1.35438	1.35489	0.00581303	2	0.000254035	22.8278	7.87602e-06
2	0	0	1	1	287.7159	1.32638	1.3268	0.00517702	2	0.000261663	22.8278	6.86885e-06
2	0	0	0	1	289.1509	1.29768	1.29805	0.00460567	2	0.000268637	22.8278	5.9784e-06
2	0	0	0	1	290.5509	1.26968	1.27	0.00415213	2	0.000274726	22.8278	5.2732e-06
2	0	0	0	1	291.9509	1.24168	1.24202	0.00376232	2	0.000280229	22.8278	4.67287e-06
2	0	0	0	1	293.3509	1.21368	1.21408	0.00342478	2	0.000285224	22.8278	4.15796e-06
2	0	0	0	1	294.7509	1.18568	1.18606	0.00312453	2	0.000289772	22.8278	3.70587e-06
2	0	0	0	1	296.1509	1.15768	1.15804	0.00285567	2	0.00029392	22.8278	3.30698e-06
2	0	0	0	1	297.5509	1.12968	1.13017	0.00261195	2	0.000297713	22.8278	2.95195e-06
2	0	0	0	1	298.9509	1.10168	1.10196	0.00238994	2	0.000301182	22.8278	2.63361e-06
2	0	0	0	1	300.3509	1.07368	1.07402	0.00218865	2	0.000304354	22.8278	2.35066e-06
2	0	0	0	1	301.7509	1.04568	1.04611	0.00200099	2	0.000307251	22.8278	2.09325e-06
2	0	0	0	1	303.1509	1.01768	1.01803	0.0018241	2	0.000309897	22.8278	1.857e-06
2	0	0	0	1	304.5509	0.989679	0.990156	0.00166955	2	0.00031231	22.8278	1.65312e-06
2	0	0	0	1	305.9509	0.961679	0.962159	0.00152192	2	0.000314509	22.8278	1.46433e-06
2	0	0	0	1	307.3509	0.933679	0.934266	0.00138393	2	0.00031651	22.8278	1.29296e-06
2	0	0	0	1	308.7509	0.90568	0.906144	0.00125596	2	0.000318326	22.8278	1.13808e-06
2	0	0	0	1	310.1509	0.877679	0.878078	0.00114124	2	0.000319971	22.8278	1.0021e-06
2	0	0	0	1	311.5509	0.849679	0.850092	0.00103617	2	0.00032146	22.8278	8.80842e-07
2	0	0	0	1	312.9509	0.82168	0.822125	0.000932397	2	0.000322801	22.8278	7.66547e-07
2	0	0	0	1	314.3509	0.793679	0.794148	0.000838649	2	0.000324008	22.8278	6.66012e-07
2	0	0	0	1	315.7509	0.76568	0.766053	0.000750292	2	0.000325088	22.8278	5.74763e-07
2	0	0	0	1	317.1509	0.737679	0.738055	0.00067025	2	0.000326051	22.8278	4.94681e-07
2	0	0	0	1	318.5509	0.709679	0.709985	0.000599486	2	0.000326906	22.8278	4.25626e-07
2	0	0	0	1	319.9509	0.68168	0.682167	0.000529151	2	0.000327661	22.8278	3.60969e-07
2	0	0	0	1	321.3509	0.65368	0.654048	0.000464531	2	0.000328323	22.8278	3.03826e-07
2	0	0	0	1	322.7509	0.62568	0.626131	0.000408025	2	0.0003289	22.8278	2.55477e-07
2	0	0	0	1	324.1509	0.59768	0.597976	0.000351321	2	0.000329397	22.8278	2.10082e-07
2	0	0	0	1	325.5509	0.56968	0.57006	0.00030177	2	0.00032982	22.8278	1.72027e-07
2	0	0	0	1	326.9509	0.54168	0.542046	0.000252772	2	0.000330175	22.8278	1.37014e-07
2	0	0	0	1	328.3509	0.51368	0.514043	0.000213113	2	0.000330466	22.8278	1.09549e-07
2	0	0	0	1	329.7509	0.48568	0.485968	0.000170086	2	0.000330696	22.8278	8.26562e-08
2	0	0	0	1	331.1509	0.45768	0.458114	0.000130676	2	0.000330871	22.8278	5.98645e-08
2	0	0	1	1	332.5859	0.42898	0.429406	7.18226e-05	2	0.000331	22.8278	3.08411e-08
2	0	0	1	1	333.9859	0.40098	0.401323	3.71646e-05	2	0.000331071	22.8278	1.4915e-08
2	0	0	1	1	335.3859	0.37298	0.373287	4.04492e-06	2	0.000331094	22.8278	1.50992e-09
2	0	0	1	1	336.7859	0.34498	0.345264	-3.08736e-05	2	0.00033107	22.8278	1.06595e-08
2	0	0	1	1	338.1859	0.31698	0.317206	-6.61861e-05	2	0.000330997	22.8278	2.09946e-08
2	0	0	1	1	339.5859	0.28898	0.289428	-0.000103735	2	0.000330871	22.8278	3.00239e-08
2	0	0	1	1	340.9859	0.26098	0.261243	-0.000143871	2	0.000330691	22.8278	3.75852e-08
2	0	0	1	1	342.3859	0.23298	0.233399	-0.00018022	2	0.000330457	22.8278	4.2063e-08
2	0	0	1	1	343.7859	0.20498	0.205254	-0.000216961	2	0.000330171	22.8278	4.45322e-08
2	0	0	1	1	345.1859	0.17698	0.177342	-0.000253553	2	0.000329836	22.8278	4.49655e-08
2	0	0	1	1	346.5859	0.14898	0.14923	-0.000295232	2	0.000329445	22.8278	4.40573e-08
2	0	0	1	1	347.9859	0.12098	0.121477	-0.000342876	2	0.000328993	22.8278	4.16515e-08
2	0	0	1	1	349.3859	0.0929797	0.0933745	-0.000401208	2	0.000328468	22.8278	3.74626e-08
2	0	0	1	1	350.7859	0.0649797	0.0652414	-0.000471666	2	0.000327852	22.8278	3.07722e-08
2	0	0	1	1	352.1859	0.0369797	0.037303	-0.000563564	2	0.000327123	22.8278	2.10226e-08
2	0	0	1	1	353.5859	0.00897971	0.00940554	-0.000684097	2	0.000326245	22.8278	6.4343e-09
2	0	0	1	1	354.9859	-0.0190203	-0.0186474	-0.000848938	2	0.000325169	22.8278	1.58305e-08
2	0	0	0	1	356.4209	-0.0477203	-0.0473858	-0.00104258	2	0.000323782	22.8278	4.94036e-08
2	0	0	0	1	357.8209	-0.0757203	-0.0751726	-0.00136474	2	0.000322041	22.8278	1.02591e-07
2	0	0	0	1	359.2209	-0.10372	-0.1033829	-0.00182608	2	0.00031975	22.8278	1.88785e-07
2	0	0	0	1	360.6209	-0.13172	-0.131361	-0.00251154	2	0.000316664	22.8278	3.2992e-07
2	0	0	0	1	362.0209	-0.15972	-0.159426	-0.00348725	2	0.000312424	22.8278	5.55958e-07
2	0	0	0	1	363.4209	-0.18772	-0.187308	-0.00489691	2	0.000306523	22.8278	9.17232e-07
2	0	0	0	1	364.8209	-0.21572	-0.215391	-0.00689078	2	0.000298252	22.8278	1.48421e-06
2	0	0	0	1	366.2209	-0.24372	-0.243412	-0.00966417	2	0.000286671	22.8278	2.35237e-06
2	0	0	1	1	367.6559	-0.27242	-0.272061	-0.013457	2	0.000270115	22.8278	3.66114e-06
2	0	0	1	1	369.0559	-0.30042	-0.299888	-0.0181929	2	0.000247976	22.8278	5.45584e-06
2	0	0	1	1	370.4559	-0.32842	-0.32804	-0.0238642	2	0.000218502	22.8278	7.82839e-06
2	0	0	1	1	371.8559	-0.35642	-0.356007	-0.0301883	2	0.000180576	22.8278	1.07472e-05
2	0	0	1	1	373.2559	-0.38442	-0.383992	-0.0364099	2	0.00013377	22.8278	1.39811e-05
2	0	0	1	1	374.6559	-0.41242	-0.411847	-0.041879	2	7.86734e-05	22.8278	1.72477e-05
2	0	0	1	1	376.0559	-0.44042	-0.440008	-0.0457728	2	1.69797e-05	22.8278	2.01404e-05
2	0	0	1	1	377.4559	-0.46842	-0.468055	-0.0477492	2	-4.88444e-05	22.8278	2.23492e-05
2	0	0	1	1	378.8559	-0.49642	-0.496055	-0.04802	2	-0.000116259	22.8278	2.38206e-05
2	0	0	1	1	380.2559	-0.52442	-0.524114	-0.0469409	2	-0.000183001	22.8278	2.46024e-05
2	0	0	0	1	381.6553	-0.552407	-0.551969	-0.0450673	2	-0.000247581	22.8278	2.48757e-05
2	0	0	1	1	383.0547	-0.580393	-0.579843	-0.0429351	2	-0.000309317	22.8278	2.48956e-05
2	1	0	1	0	384.3627	-0.593493	-0.592942	-0.0362385	2	-0.000363283	22.8278	2.14874e-05
2	1	0	1	0	385.7627	-0.565493	-0.565219	-0.0276774	2	-0.000407122	22.8278	1.56438e-05
2	1	0	1	0	387.1627	-0.537493	-0.537178	-0.0220758	2	-0.000441684	22.8278	1.18587e-05
2	1	0	1	0	388.5627	-0.509493	-0.509149	-0.0171931	2	-0.000468989	22.8278	8.75385e-06
2	1	0	1	0	389.9627	-0.481493	-0.481013	-0.012912	2	-0.000489903	22.8278	6.21083e-06
2	1	0	1	0	391.3627	-0.453493	-0.453227	-0.00926144	2	-0.000505246	22.8278	4.19754e-06
2	1	0	1	0	392.7627	-0.425493	-0.424968	-0.00634351	2	-0.000515989	22.8278	2.69579e-06
2	1	0	0	0	394.1977	-0.396793	-0.396474	-0.00416437	2	-0.000523343	22.8278	1.65107e-06
2	1	0	0	0	395.5977	-0.368793	-0.36836	-0.00268487	2	-0.000527982	22.8278	9.89e-07
2	1	0	0	0	396.9977	-0.340793	-0.340422	-0.00171421	2	-0.000530932	22.8278	5.83557e-07
2	1	0	0	0	398.3977	-0.312793	-0.312465	-0.00110544	2	-0.000532797	22.8278	3.45412e-07
2	1	0	0	0	399.7977	-0.284793	-0.284449	-0.000718303	2	-0.000533978	22.8278	2.04321e-07
2	1	0	0	0	401.1977	-0.256793	-0.256288	-0.000469164	2	-0.000534728	22.8278	1.20241e-07
2	1	0	0	0	402.5977	-0.228793	-0.228432	-0.000311951	2	-0.000535202	22.8278	7.12596e-08
2	1	0	1	0	404.0327	-0.200093	-0.199695	-0.000155838	2	-0.000535493	22.8278	3.11202e-08
2	1	0	1	0	405.4327	-0.172093	-0.171644	-7.38905e-05	2	-0.000535645	22.8278	1.26829e-08
2	1	0	1	0	406.8327	-0.144093	-0.143614	-1.1582e-05	2	-0.000535698	22.8278	1.66334e-09
2	1	0	1	0	408.2327	-0.116093	-0.115678	4.1395e-05	2	-0.000535668	22.8278	4.78847e-09
2	1	0	1	0	409.6327	-0.0880926	-0.0875847	8.77212e-05	2	-0.000535572	22.8278	7.68303e-09
2	1	0	1	0	411.0327	-0.0600925	-0.0596071	0.000125532	2	-0.000535416	22.8278	7.48262e-09
2	1	0	1	0	412.4327	-0.0320925	-0.0316772	0.000164187	2	-0.000535206	22.8278	5.201e-09
2	1	0	1	0	413.8327	-0.00409254	-0.00369105	0.000197329	2	-0.000534946	22.8278	7.28351e-10
2	1	0	1	0	415.2327	0.0239074	0.0242932	0.000228926	2	-0.000534639	22.8278	5.56136e-09
2	1	0	1	0	416.6327	0.05190745	0.0523339	0.000260011	2	-0.000534287	22.8278	1.36074e-08
2	1	0	1	0	418.0327	0.0799074	0.0803897	0.000287071	2	-0.000533896	22.8278	2.30775e-08
2	1	0	1	0	419.4327	0.107907	0.108341	0.000311759	2	-0.000533468	22.8278	3.37762e-08
2	1	0	1	0	420.8327	0.135907	0.13621	0.000335405	2	-0.000533007	22.8278	4.56856e-08
2	1	0	1	0	422.2327	0.163907	0.164317	0.000356051	2	-0.000532515	22.8278	5.85052e-08
2	1	0	1	0	423.6327	0.191907	0.192204	0.000377647	3	-0.000531993	22.8278	7.25851e-08
2	1	0	1	0	425.0327	0.219907	0.220353	0.0003991	3	-0.000531442	22.8278	8.79429e-08
2	1	0	1	0	426.4327	0.2479074	0.248346	0.000422227	3	-0.000530859	22.8278	1.04858e-07
2	1	0	1	0	427.8327	0.275907	0.2764	0.000450605	3	-0.00053024	22.8278	1.24547e-07
2	1	0	1	0	429.2327	0.303907	0.304289	0.000480777	3	-0.000529581	22.8278	1.46295e-07
2	1	0	1	0	430.6327	0.331907	0.332171	0.000514708	3	-0.000528876	22.8278	1.70971e-07
2	1	0	1	0	432.0327	0.359907	0.360148	0.000551119	3	-0.000528121	22.8278	1.98485e-07
2	1	0	1	0	433.4327	0.387907	0.388194	0.00059125	3	-0.000527314	22.8278	2.29519e-07
2	1	0	1	0	434.8327	0.415907	0.41621	0.000634017	3	-0.000526447	22.8278	2.63885e-07
2	1	0	1	0	436.2327	0.443907	0.44432	0.000683269	3	-0.000525516	22.8278	3.0359e-07
2	1	0	1	0	437.6327	0.471907	0.472386	0.000736103	3	-0.000524513	22.8278	3.47725e-07
2	1	0	1	0	439.0327	0.499907	0.50044	0.000796326	3	-0.000523431	22.8278	3.98513e-07
2	1	0	1	0	440.4327	0.527907	0.528278	0.000862387	3	-0.000522262	22.8278	4.55581e-07
2	1	0	1	0	441.8327	0.555907	0.556333	0.000933448	3	-0.000520996	22.8278	5.19308e-07
2	1	0	0	0	443.2677	0.584607	0.584899	0.000995877	3	-0.000519585	22.8278	5.82487e-07
2	1	0	0	0	444.6677	0.612607	0.612854	0.00108578	3	-0.000518093	22.8278	6.65422e-07
2	1	0	0	0	446.0677	0.640607	0.641039	0.00117389	3	-0.000516477	22.8278	7.5251e-07
2	1	0	0	0	447.4677	0.668607	0.668918	0.00126996	3	-0.000514732	22.8278	8.495e-07
2	1	0	0	0	448.8677	0.696607	0.696819	0.00136944	3	-0.000512851	22.8278	9.54252e-07
2	1	0	0	0	450.2677	0.724607	0.724914	0.00147463	3	-0.000510826	22.8278	1.06898e-06
2	1	0	0	0	451.6677	0.752607	0.753124	0.00158691	3	-0.000508651	22.8278	1.19514e-06
2	1	0	0	0	453.0677	0.780607	0.781064	0.00170662	3	-0.000506314	22.8278	1.33298e-06
2	1	0	0	0	454.4677	0.808607	0.809033	0.00182696	3	-0.000503809	22.8278	1.47807e-06
2	1	0	0	0	455.8677	0.836607	0.837027	0.00196301	3	-0.000501124	22.8278	1.64309e-06
2	1	0	0	0	457.2677	0.864607	0.864985	0.00210299	3	-0.000498248	22.8278	1.81905e-06
2	1	0	0	0	458.6677	0.892607	0.893077	0.00225131	3	-0.00049517	22.8278	2.01059e-06
2	1	0	0	0	460.0677	0.920607	0.921029	0.00241316	3	-0.000491875	22.8278	2.22259e-06
2	1	0	0	0	461.4677	0.948607	0.949076	0.00258277	3	-0.000488347	22.8278	2.45124e-06
2	1	0	0	0	462.8677	0.976607	0.977078	0.00276207	3	-0.000484575	22.8278	2.69876e-06
2	1	0	1	0	464.2680	1.00461	1.00494	0.00295636	3	-0.00048054	22.8278	2.97096e-06
2	1	0	1	0	465.6687	1.03263	1.03283	0.00316264	3	-0.000476226	22.8278	3.26648e-06
2	1	0	1	0	467.0691	1.06063	1.06114	0.00338332	3	-0.000471612	22.8278	3.59018e-06
2	1	0	0	0	468.4694	1.08864	1.08894	0.00361503	3	-0.000466681	22.8278	3.93656e-06
2	1	0	0	0	469.8701	1.11665	1.11708	0.00386704	3	-0.000461409	22.8278	4.3198e-06
2	1	0	1	0	471.2712	1.14468	1.14513	0.00413927	3	-0.000455774	22.8278	4.74002e-06
2	1	0	1	0	472.6719	1.17269	1.17311	0.00442168	3	-0.000449742	22.8278	5.18713e-06
2	1	0	1	0	474.0727	1.20071	1.20121	0.00472957	3	-0.000443305	22.8278	5.6812e-06
2	1	0	0	0	475.4685	1.22862	1.22901	0.0050482	3	-0.0004364544	22.8278	6.2043e-06
2	1	0	1	0	476.8695	1.25664	1.25712	0.00538631	3	-0.000429118	22.8278	6.77123e-06
2	1	0	0	0	478.2709	1.28467	1.28508	0.00575407	3	-0.000421284	22.8278	7.39445e-06
2	1	0	1	0	479.6719	1.31269	1.31304	0.00615379	3	-0.000412919	22.8278	8.08018e-06
2	1	0	0	0	481.0733	1.34072	1.34115	0.00661042	3	-0.000403952	22.8278	8.86558e-06
2	1	0	1	0	482.4743	1.36874	1.36905	0.00712866	3	-0.000394305	22.8278	9.75952e-06
2	1	0	0	0	483.8761	1.39678	1.39691	0.00775653	3	-0.00038385	22.8278	1.08352e-05
2	1	0	0	0	485.2773	1.4248	1.42519	0.00850316	3	-0.000372444	22.8278	1.21186e-05
2	1	0	0	0	486.6793	1.45284	1.45307	0.00945109	3	-0.000359848	22.8278	1.37331e-05
2	1	0	0	0	488.1157	1.48157	1.482	0.0107756	3	-0.000345312	22.8278	1.59693e-05
2	0	0	1	0	489.4175	1.49245	1.49281	0.0108432	3	-0.000330568	22.8278	1.61868e-05
2	0	0	1	0	490.8175	1.46445	1.46475	0.00851465	3	-0.000317219	22.8278	1.24718e-05
2	0	0	1	0	492.2175	1.43645	1.43689	0.00703491	3	-0.000306454	22.8278	1.01084e-05
2	0	0	1	0	493.6175	1.40845	1.40882	0.00598516	3	-0.000297432	22.8278	8.43201e-06
2	0	0	1	0	495.0175	1.38045	1.3808	0.00521195	3	-0.000289671	22.8278	7.19665e-06
2	0	0	0	0	496.4525	1.35175	1.35215	0.00453845	3	-0.000282736	22.8278	6.13668e-06
2	0	0	0	0	497.8525	1.32375	1.32432	0.00403278	3	-0.000276775	22.8278	5.34068e-06
2	0	0	0	0	499.2525	1.29575	1.29601	0.00361829	3	-0.000271454	22.8278	4.68935e-06
2	0	0	0	0	500.6525	1.26775	1.26813	0.00326583	3	-0.000266669	22.8278	4.14148e-06
2	0	0	0	0	502.0525	1.23975	1.24015	0.00295976	3	-0.000262345	22.8278	3.67053e-06
2	0	0	0	0	503.4525	1.21175	1.212098	0.0026939	3	-0.000258421	22.8278	3.26527e-06
2	0	0	0	0	504.8525	1.18375	1.18405	0.00245715	3	-0.000254847	22.8278	2.90939e-06
2	0	0	0	0	506.2525	1.15575	1.15623	0.00224473	3	-0.000251583	22.8278	2.59544e-06
2	0	0	0	0	507.6525	1.12775	1.12819	0.00204512	3	-0.00024861	22.8278	2.30729e-06
2	0	0	0	0	509.0525	1.09975	1.10001	0.00187084	3	-0.000245901	22.8278	2.05795e-06
2	0	0	0	0	510.4525	1.07175	1.07218	0.00170902	3	-0.000243428	22.8278	1.83239e-06
2	0	0	0	0	511.8525	1.04375	1.0441	0.00156171	3	-0.000241172	22.8278	1.63058e-06
2	0	0	0	0	513.2525	1.01575	1.0161	0.00142475	3	-0.000239112	22.8278	1.44769e-06
2	0	0	0	0	514.6525	0.987751	0.988105	0.00129739	3	-0.000237234	22.8278	1.28196e-06
2	0	0	0	0	516.0525	0.959752	0.960207	0.00118422	3	-0.000235523	22.8278	1.13709e-06
2	0	0	0	0	517.4525	0.931751	0.93215	0.0010826	3	-0.000233965	22.8278	1.00914e-06
2	0	0	0	0	518.8525	0.903751	0.904157	0.000983128	3	-0.000232549	22.8278	8.88902e-07
2	0	0	0	0	520.2525	0.875751	0.876209	0.000893763	3	-0.000231265	22.8278	7.83124e-07
2	0	0	0	0	521.6525	0.847751	0.848143	0.000810849	3	-0.000230102	22.8278	6.87715e-07
2	0	0	0	0	523.0525	0.819752	0.820209	0.000732313	3	-0.000229053	22.8278	6.0065e-07
2	0	0	0	0	524.4525	0.791752	0.792267	0.000662323	3	-0.00022811	22.8278	5.24736e-07
2	0	0	0	0	525.8525	0.763752	0.7642	0.000593048	3	-0.000227264	22.8278	4.53207e-07
2	0	0	0	0	527.2525	0.735752	0.736042	0.00053031	3	-0.00022651	22.8278	3.9033e-07
2	0	0	0	0	528.6525	0.707752	0.708219	0.000470994	3	-0.000225843	22.8278	3.33567e-07
2	0	0	0	0	530.0525	0.679752	0.680151	0.000418455	3	-0.000225255	22.8278	2.84612e-07
2	0	0	0	0	531.4525	0.651752	0.652205	0.000364979	3	-0.000224742	22.8278	2.38042e-07
2	0	0	0	0	532.8525	0.623752	0.624257	0.00031457	3	-0.000224299	22.8278	1.96373e-07
2	0	0	0	0	534.2525	0.595752	0.596329	0.000270726	3	-0.000223921	22.8278	1.61442e-07
2	0	0	0	0	535.6525	0.567752	0.568072	0.000232907	3	-0.000223604	22.8278	1.32308e-07
2	0	0	0	0	537.0525	0.539752	0.54005	0.00019488	3	-0.000223343	22.8278	1.05245e-07
2	0	0	0	0	538.4525	0.511752	0.512099	0.000157679	3	-0.000223135	22.8278	8.07472e-08
2	0	0	0	0	539.8525	0.483752	0.484033	0.000125488	3	-0.000222977	22.8278	6.07404e-08
2	0	0	0	0	541.2525	0.455752	0.456423	8.87431e-05	3	-0.000222864	22.8278	4.05044e-08
2	0	0	0	0	542.6525	0.427752	0.428197	6.23539e-05	3	-0.000222796	22.8278	2.66997e-08
2	0	0	0	0	544.0525	0.399752	0.40012	3.44952e-05	3	-0.000222768	22.8278	1.38022e-08
2	0	0	0	0	545.4525	0.371752	0.372185	7.34366e-06	3	-0.000222781	22.8278	2.7332e-09
2	0	0	0	0	546.8525	0.343752	0.344009	-2.45264e-05	3	-0.000222835	22.8278	8.43732e-09
2	0	0	0	0	548.2525	0.315752	0.315973	-5.38219e-05	3	-0.000222931	22.8278	1.70063e-08
2	0	0	0	0	549.6525	0.287752	0.288099	-8.49477e-05	3	-0.000223072	22.8278	2.44733e-08
2	0	0	0	0	551.0525	0.259752	0.260217	-0.000118408	3	-0.00022326	22.8278	3.08118e-08
2	0	0	0	0	552.4525	0.231752	0.232009	-0.00015358	3	-0.000223495	22.8278	3.56321e-08
2	0	0	0	0	553.8525	0.203752	0.204186	-0.000180574	3	-0.000223775	22.8278	3.68708e-08
2	0	0	0	0	555.2525	0.175752	0.176121	-0.000214895	3	-0.000224102	22.8278	3.78474e-08
2	0	0	1	0	556.6875	0.147052	0.147462	-0.000285293	3	-0.00022449	22.8278	4.20697e-08
2	0	0	1	0	558.0875	0.119052	0.119517	-0.000331049	3	-0.000224929	22.8278	3.95661e-08
2	0	0	1	0	559.4875	0.0910517	0.091516	-0.000386492	3	-0.000225438	22.8278	3.53702e-08
2	0	0	1	0	560.8875	0.0630517	0.0633439	-0.000458518	3	-0.000226036	22.8278	2.90443e-08
2	0	0	1	0	562.2875	0.0350517	0.0354493	-0.000552	3	-0.000226749	22.8278	1.9568e-08
2	0	0	1	0	563.6875	0.00705171	0.00744787	-0.00068017	3	-0.000227616	22.8278	5.06581e-09
2	0	0	1	0	565.0875	-0.0209483	-0.0205623	-0.000860962	3	-0.000228698	22.8278	1.77034e-08
2	0	0	0	0	566.5225	-0.0496483	-0.0492376	-0.00107944	3	-0.000230122	22.8278	5.31491e-08
2	0	0	0	0	567.9225	-0.0776483	-0.0772123	-0.00146426	3	-0.000231957	22.8278	1.13059e-07
2	0	0	0	0	569.3225	-0.105648	-0.105323	-0.00202687	3	-0.000234446	22.8278	2.13477e-07
2	0	0	0	0	570.7225	-0.133648	-0.133191	-0.00286051	3	-0.000237906	22.8278	3.80993e-07
2	0	0	0	0	572.1225	-0.161648	-0.161127	-0.00408232	3	-0.000242796	22.8278	6.57772e-07
2	0	0	0	0	573.5225	-0.189648	-0.189201	-0.00586401	3	-0.000249775	22.8278	1.10948e-06
2	0	0	0	0	574.9225	-0.217648	-0.217331	-0.00836743	3	-0.000259742	22.8278	1.8185e-06
2	0	0	1	0	576.3575	-0.246348	-0.245822	-0.0118862	3	-0.000274274	22.8278	2.92188e-06
2	0	0	1	0	577.7575	-0.274348	-0.273965	-0.0164185	3	-0.000294059	22.8278	4.49808e-06
2	0	0	1	0	579.1575	-0.302348	-0.301796	-0.021892	3	-0.000320872	22.8278	6.6069e-06
2	0	0	1	0	580.5575	-0.330348	-0.33008	-0.0280843	3	-0.000355931	22.8278	9.27008e-06
2	0	0	1	0	581.9575	-0.358348	-0.358002	-0.0344606	3	-0.000399897	22.8278	1.233699E-005
2	0	0	1	0	583.3575	-0.386348	-0.385906	-0.0402312	3	-0.000452405	22.8278	1.55255e-05
2	0	0	1	0	584.7575	-0.414348	-0.413811	-0.044508	3	-0.000512013	22.8278	1.84179e-05
2	0	0	1	0	586.1575	-0.442348	-0.441792	-0.0469029	3	-0.000576354	22.8278	2.07213e-05
2	0	0	1	0	587.5575	-0.470348	-0.469847	-0.0475102	3	-0.000642816	22.8278	2.23225e-05
2	0	0	1	0	588.9575	-0.498348	-0.497882	-0.0466472	3	-0.000709008	22.8278	2.32248e-05
2	0	0	0	0	590.3573	-0.526341	-0.526019	-0.0449097	3	-0.000773299	22.8278	2.36234e-05
2	0	0	0	0	591.7565	-0.554327	-0.553934	-0.0428361	3	-0.000834849	22.8278	2.37284e-05
2	0	0	0	0	593.1561	-0.582317	-0.581909	-0.0407802	3	-0.000893488	22.8278	2.37304e-05
2	1	0	1	1	594.4663	-0.591445	-0.590884	-0.0340519	3	-0.000944502	22.8278	2.01207e-05
2	1	0	1	1	595.8663	-0.563445	-0.562987	-0.0269001	3	-0.000986484	22.8278	1.51444e-05
2	1	0	1	1	597.2663	-0.535445	-0.535107	-0.022026	3	-0.00102051	22.8278	1.17863e-05
2	1	0	1	1	598.6663	-0.507445	-0.50703	-0.0177449	3	-0.00104818	22.8278	8.99719e-06
2	1	0	1	1	600.0663	-0.479445	-0.478973	-0.0138329	3	-0.00107013	22.8278	6.6256e-06
2	1	0	1	1	601.4663	-0.451445	-0.451045	-0.010337	3	-0.00108688	22.8278	4.66246e-06
2	1	0	1	1	602.8663	-0.423445	-0.422904	-0.00736681	3	-0.0010991	22.8278	3.11545e-06
2	1	0	1	1	604.2663	-0.395445	-0.39508	-0.00501032	3	-0.00110759	22.8278	1.97948e-06
2	1	0	0	1	605.7013	-0.366745	-0.366323	-0.00327044	3	-0.00111337	22.8278	1.19804e-06
2	1	0	0	1	607.1013	-0.338745	-0.338257	-0.0020908	3	-0.00111699	22.8278	7.07226e-07
2	1	0	0	1	608.5013	-0.310745	-0.310278	-0.00131195	3	-0.00111924	22.8278	4.07069e-07
2	1	0	0	1	609.9013	-0.282745	-0.282218	-0.00081552	3	-0.00112063	22.8278	2.30155e-07
2	1	0	0	1	611.3013	-0.254745	-0.254236	-0.000500936	3	-0.00112146	22.8278	1.27356e-07
2	1	0	0	1	612.7013	-0.226745	-0.226255	-0.000296907	3	-0.00112194	22.8278	6.71767e-08
2	1	0	0	1	614.1013	-0.198745	-0.198253	-0.000161222	3	-0.00112219	22.8278	3.19628e-08
2	1	0	0	1	615.5013	-0.170745	-0.170421	-7.32835e-05	3	-0.00112229	22.8278	1.248908E-008
2	1	0	0	1	616.9013	-0.142745	-0.142349	-5.35598e-06	3	-0.00112229	22.8278	7.6242e-10
2	1	0	0	1	618.3013	-0.114745	-0.114313	4.30603e-05	3	-0.001122199	22.8278	4.92234e-09
2	1	0	0	1	619.7013	-0.0867445	-0.0862769	8.95761e-05	3	-0.00112205	22.8278	7.72835e-09
2	1	0	0	1	621.1013	-0.0587445	-0.058203	0.000126772	3	-0.00112184	22.8278	7.37851e-09
2	1	0	1	1	622.5363	-0.0300445	-0.029663	0.000191282	3	-0.00112159	22.8278	5.674e-09
2	1	0	1	1	623.9363	-0.00204454	-0.00155192	0.000216082	3	-0.0011213	22.8278	3.35342e-10
2	1	0	1	1	625.3363	0.0259555	0.0264657	0.000240019	3	-0.00112098	22.8278	6.35227e-09
2	1	0	1	1	626.7363	0.0539555	0.0544309	0.000262094	3	-0.00112062	22.8278	1.4266e-08
2	1	0	1	1	628.1363	0.0819554	0.0823779	0.000280755	3	-0.00112024	22.8278	2.31281e-08
2	1	0	1	1	629.5363	0.109955	0.110332	0.000298425	3	-0.00111982	22.8278	3.29257e-08
2	1	0	1	1	630.9363	0.137955	0.138416	0.000316508	3	-0.00111939	22.8278	4.38097e-08
2	1	0	1	1	632.3363	0.165955	0.166161	0.000330554	3	-0.00111893	22.8278	5.49252e-08
2	1	0	1	1	633.7363	0.193955	0.194391	0.000347438	4	-0.00111845	22.8278	6.75389e-08
2	1	0	1	1	635.1363	0.221955	0.222339	0.000363833	4	-0.00111795	22.8278	8.08944e-08
2	1	0	1	1	636.5363	0.249955	0.250346	0.000607826	4	-0.00111731	22.8278	1.52167e-07
2	1	0	1	1	637.9363	0.277955	0.278304	0.000759252	4	-0.00111634	22.8278	2.11303e-07
2	1	0	0	1	639.3713	0.306655	0.306774	0.000739992	4	-0.00111522	22.8278	2.2701e-07
2	1	0	0	1	640.7713	0.334655	0.33494	0.000832456	4	-0.00111412	22.8278	2.78823e-07
2	1	0	0	1	642.1713	0.362655	0.363164	0.000794718	4	-0.001113	22.8278	2.88613e-07
2	1	0	0	1	643.5713	0.390655	0.391044	0.000539079	4	-0.00111187	22.8278	2.10804e-07
2	1	0	0	1	644.9713	0.418655	0.419094	0.000609023	4	-0.00111101	22.8278	2.55238e-07
2	1	0	0	1	646.3713	0.446655	0.447021	0.000636412	4	-0.00111009	22.8278	2.84489e-07
2	1	0	0	1	647.7713	0.4746553	0.47509	0.00067612	4	-0.00110915	22.8278	3.21218e-07
2	1	0	0	1	649.1713	0.502655	0.503	0.000727389	4	-0.00110813	22.8278	3.65877e-07
2	1	0	0	1	650.5713	0.530655	0.53102	0.000786126	4	-0.00110703	22.8278	4.17448e-07
2	1	0	0	1	651.9713	0.558655	0.559082	0.000851122	4	-0.00110586	22.8278	4.75847e-07
2	1	0	0	1	653.3713	0.586655	0.587051	0.00090814	4	-0.0011046	22.8278	5.33124e-07
2	1	0	0	1	654.7713	0.614655	0.615125	0.000975876	4	-0.00110325	22.8278	6.00286e-07
2	1	0	0	1	656.1713	0.642655	0.643129	0.00106188	4	-0.00110179	22.8278	6.82923e-07
2	1	0	0	1	657.5713	0.670655	0.670967	0.00111266	4	-0.00110025	22.8278	7.46554e-07
2	1	0	0	1	658.9713	0.698655	0.698947	0.00120687	4	-0.00109859	22.8278	8.43542e-07
2	1	0	0	1	660.3713	0.726655	0.727067	0.00129424	4	-0.0010968	22.8278	9.40997e-07
2	1	0	0	1	661.7713	0.754655	0.755108	0.00139915	4	-0.00109488	22.8278	1.05651e-06
2	1	0	0	1	663.1713	0.782655	0.783023	0.00151756	4	-0.00109281	22.8278	1.18828e-06
2	1	0	0	1	664.5713	0.810655	0.811209	0.00162728	4	-0.00109058	22.8278	1.32006e-06
2	1	0	0	1	665.9713	0.838655	0.839149	0.00173877	4	-0.00108819	22.8278	1.45908e-06
2	1	0	0	1	667.3713	0.866655	0.867052	0.00186495	4	-0.00108564	22.8278	1.61701e-06
2	1	0	0	1	668.7713	0.894655	0.895113	0.00197859	4	-0.00108293	22.8278	1.77107e-06
2	1	0	0	1	670.1713	0.922655	0.923045	0.0021171	4	-0.00108004	22.8278	1.95417e-06
2	1	0	0	1	671.5713	0.950655	0.951017	0.00225751	4	-0.00107695	22.8278	2.14693e-06
2	1	0	0	1	672.9713	0.978655	0.979157	0.00240837	4	-0.00107366	22.8278	2.35817e-06
2	1	0	1	1	674.3719	1.00667	1.00696	0.00257318	4	-0.00107014	22.8278	2.5911e-06
2	1	0	0	1	675.7722	1.03467	1.03498	0.00274609	4	-0.00106639	22.8278	2.84213e-06
2	1	0	0	1	677.1725	1.06268	1.06307	0.00293254	4	-0.00106238	22.8278	3.11751e-06
2	1	0	1	1	678.5727	1.09068	1.09098	0.00313046	4	-0.00105811	22.8278	3.41527e-06
2	1	0	1	1	679.9731	1.11869	1.11908	0.00333975	4	-0.00105355	22.8278	3.73746e-06
2	1	0	0	1	681.3733	1.1467	1.14718	0.00357209	4	-0.00104869	22.8278	4.09781e-06
2	1	0	0	1	682.7737	1.1747	1.17513	0.00381971	4	-0.00104348	22.8278	4.48866e-06
2	1	0	0	1	684.1740	1.20271	1.20312	0.00407871	4	-0.00103793	22.8278	4.90718e-06
2	1	0	1	1	685.5747	1.23072	1.23104	0.00436017	4	-0.00103199	22.8278	5.36755e-06
2	1	0	0	1	686.9758	1.25874	1.25915	0.00465489	4	-0.00102564	22.8278	5.8612e-06
2	1	0	0	1	688.3765	1.28676	1.2872	0.00499347	4	-0.001018857	22.8278	6.4276e-06
2	1	0	0	1	689.7777	1.31478	1.31515	0.00535373	4	-0.00101158	22.8278	7.04096e-06
2	1	0	1	1	691.1795	1.34282	1.34323	0.00576474	4	-0.00100377	22.8278	7.74335e-06
2	1	0	0	1	692.5806	1.37084	1.37105	0.00624841	4	-0.000995338	22.8278	8.56687e-06
2	1	0	1	1	693.9819	1.39887	1.39913	0.0068263	4	-0.000986164	22.8278	9.55091e-06
2	1	0	0	1	695.3830	1.42689	1.4273	0.00754902	4	-0.000976085	22.8278	1.07747e-05
2	1	0	0	1	696.7840	1.45491	1.45526	0.00849893	4	-0.000964852	22.8278	1.23682e-05
2	1	0	1	1	698.1848	1.48292	1.48322	0.00983515	4	-0.000952029	22.8278	1.45877e-05
2	0	0	1	1	699.5683	1.48942	1.48982	0.00960146	4	-0.000937782	22.8278	1.43044e-05
2	0	0	1	1	700.9683	1.46142	1.46186	0.00750754	4	-0.000925981	22.8278	1.0975e-05
2	0	0	1	1	702.3683	1.43342	1.43361	0.00618272	4	-0.000916518	22.8278	8.86358e-06
2	0	0	1	1	703.7683	1.40542	1.40586	0.00525119	4	-0.000908596	22.8278	7.38245e-06
2	0	0	0	1	705.2033	1.37672	1.37701	0.00451153	4	-0.000901656	22.8278	6.21244e-06
2	0	0	0	1	706.6033	1.34872	1.34919	0.00396745	4	-0.000895764	22.8278	5.35284e-06
2	0	0	0	1	708.0033	1.32072	1.32126	0.00353449	4	-0.000890549	22.8278	4.66998e-06
2	0	0	0	1	709.4033	1.29272	1.29312	0.00317776	4	-0.000885887	22.8278	4.10922e-06
2	0	0	0	1	710.8033	1.26472	1.26523	0.00287428	4	-0.000881687	22.8278	3.63664e-06
2	0	0	0	1	712.2033	1.23672	1.23701	0.00261524	4	-0.000877873	22.8278	3.23508e-06
2	0	0	0	1	713.6033	1.20872	1.20909	0.00238147	4	-0.000874407	22.8278	2.87941e-06
2	0	0	0	1	715.0033	1.18072	1.18105	0.00217878	4	-0.000871244	22.8278	2.57326e-06
2	0	0	0	1	716.4033	1.15272	1.15325	0.00200192	4	-0.000868347	22.8278	2.3087e-06
2	0	0	0	1	717.8033	1.12472	1.125157	0.00184278	4	-0.000865685	22.8278	2.07342e-06
2	0	0	0	1	719.2033	1.09672	1.09712	0.00168807	4	-0.000863241	22.8278	1.85202e-06
2	0	0	0	1	720.6033	1.06872	1.06921	0.00154366	4	-0.000861007	22.8278	1.6505e-06
2	0	0	0	1	722.0033	1.04072	1.04102	0.00141778	4	-0.000858963	22.8278	1.47593e-06
2	0	0	0	1	723.4033	1.01272	1.01309	0.0013007	4	-0.000857089	22.8278	1.31773e-06
2	0	0	0	1	724.8033	0.984716	0.985128	0.00119236	4	-0.000855376	22.8278	1.17463e-06
2	0	0	0	1	726.2033	0.956716	0.95717	0.00109619	4	-0.000853805	22.8278	1.04924e-06
2	0	0	0	1	727.6033	0.928716	0.929271	0.00100314	4	-0.000852369	22.8278	9.32187e-07
2	0	0	0	1	729.0033	0.900716	0.901082	0.000916853	4	-0.000851052	22.8278	8.26159e-07
2	0	0	0	1	730.4033	0.872716	0.873099	0.000840388	4	-0.000849849	22.8278	7.33742e-07
2	0	0	0	1	731.8033	0.844715	0.845097	0.000767944	4	-0.000848754	22.8278	6.48988e-07
2	0	0	0	1	733.2033	0.816716	0.817218	0.000695174	4	-0.000847759	22.8278	5.68108e-07
2	0	0	0	1	734.6033	0.788716	0.789167	0.000631156	4	-0.00084686	22.8278	4.98087e-07
2	0	0	0	1	736.0033	0.760716	0.761176	0.000567355	4	-0.000846052	22.8278	4.31857e-07
2	0	0	0	1	737.4033	0.732715	0.733125	0.000504108	4	-0.000845335	22.8278	3.69574e-07
2	0	0	0	1	738.8033	0.704716	0.70524	0.000445608	4	-0.0008447	22.8278	3.1426e-07
2	0	0	0	1	740.2033	0.676716	0.677017	0.000400351	4	-0.000844139	22.8278	2.71044e-07
2	0	0	0	1	741.6033	0.648716	0.649173	0.000352385	4	-0.000843647	22.8278	2.28759e-07
2	0	0	0	1	743.0033	0.620716	0.621315	0.000307472	4	-0.000843224	22.8278	1.91037e-07
2	0	0	0	1	744.4033	0.592716	0.59314	0.000274409	4	-0.000842855	22.8278	1.627632E-007
2	0	0	0	1	745.8033	0.564716	0.565178	0.00023103	4	-0.000842535	22.8278	1.30573e-07
2	0	0	0	1	747.2033	0.536716	0.53708	0.000195756	4	-0.000842269	22.8278	1.05137e-07
2	0	0	0	1	748.6033	0.508716	0.50912	0.000163827	4	-0.000842053	22.8278	8.34076e-08
2	0	0	0	1	750.0033	0.480716	0.481049	0.000129903	4	-0.000841884	22.8278	6.24896e-08
2	0	0	0	1	751.4033	0.452716	0.453162	0.000102121	4	-0.000841756	22.8278	4.62772e-08
2	0	0	0	1	752.8033	0.424716	0.425097	7.90758e-05	4	-0.000841668	22.8278	3.36149e-08
2	0	0	0	1	754.2033	0.396716	0.397129	4.07051e-05	4	-0.000841621	22.8278	1.61652e-08
2	0	0	0	1	755.6033	0.368716	0.369096	1.47217e-05	4	-0.00084162	22.8278	5.43373e-09
2	0	0	0	1	757.0033	0.340716	0.340951	-1.10336e-05	4	-0.000841654	22.8278	3.7619e-09
2	0	0	0	1	758.4033	0.312716	0.312897	-3.64067e-05	4	-0.000841729	22.8278	1.13915e-08
2	0	0	0	1	759.8033	0.284716	0.2851215	-7.00092e-05	4	-0.000841848	22.8278	1.99611e-08
2	0	0	0	1	761.2033	0.256716	0.257227	-0.000101465	4	-0.000842011	22.8278	2.60994e-08
2	0	0	0	1	762.6033	0.228716	0.229062	-0.000124746	4	-0.000842217	22.8278	2.85745e-08
2	0	0	1	1	764.0383	0.200016	0.2003	-0.000183844	4	-0.00084247	22.8278	3.68241e-08
2	0	0	1	1	765.4383	0.172016	0.172252	-0.00021931	4	-0.000842761	22.8278	3.77766e-08
2	0	0	1	1	766.8383	0.144016	0.144459	-0.000256226	4	-0.000843104	22.8278	3.70143e-08
2	0	0	1	1	768.2383	0.116016	0.116462	-0.000303416	4	-0.000843501	22.8278	3.53364e-08
2	0	0	1	1	769.6383	0.0880157	0.0884481	-0.000359041	4	-0.000843972	22.8278	3.17565e-08
2	0	0	1	1	771.0383	0.0600157	0.060331	-0.000435776	4	-0.000844535	22.8278	2.62909e-08
2	0	0	1	1	772.4383	0.0320157	0.0323373	-0.000543223	4	-0.000845222	22.8278	1.75664e-08
2	0	0	1	1	773.8383	0.00401571	0.0043864	-0.000686325	4	-0.000846086	22.8278	3.0105e-09
2	0	0	1	1	775.2383	-0.0239843	-0.0235273	-0.00089775	4	-0.000847195	22.8278	2.11216e-08
2	0	0	0	1	776.6733	-0.0526843	-0.0521567	-0.00117775	4	-0.000848709	22.8278	6.14277e-08
2	0	0	0	1	778.0733	-0.0806843	-0.0801907	-0.00165449	4	-0.000850745	22.8278	1.32675e-07
2	0	0	0	1	779.4733	-0.108684	-0.108295	-0.0023789	4	-0.000853609	22.8278	2.57623e-07
2	0	0	0	1	780.8733	-0.136684	-0.136189	-0.00344356	4	-0.000857716	22.8278	4.68974e-07
2	0	0	0	1	782.2733	-0.164684	-0.16416	-0.00503282	4	-0.000863672	22.8278	8.26187e-07
2	0	0	0	1	783.6733	-0.192684	-0.1922	-0.00729955	4	-0.000872312	22.8278	1.40297e-06
2	0	0	1	1	785.1083	-0.221384	-0.221104	-0.0105398	4	-0.000885121	22.8278	2.33039e-06
2	0	0	1	1	786.5083	-0.249384	-0.248854	-0.0147338	4	-0.000902815	22.8278	3.66657e-06
2	0	0	1	1	787.9083	-0.277384	-0.276931	-0.019991	4	-0.000927134	22.8278	5.53612e-06
2	0	0	1	1	789.3083	-0.305384	-0.304985	-0.0259801	4	-0.000959373	22.8278	7.92355e-06
2	0	0	1	1	790.7083	-0.333384	-0.332988	-0.0322884	4	-0.00100031	22.8278	1.07517e-05
2	0	0	1	1	792.1083	-0.361384	-0.360902	-0.0380497	4	-0.0010498	22.8278	1.37322e-05
2	0	0	1	1	793.5083	-0.389384	-0.389117	-0.0425282	4	-0.00110657	22.8278	1.65484e-05
2	0	0	1	1	794.9083	-0.417384	-0.41672	-0.0452289	4	-0.0011684	22.8278	1.88478e-05
2	0	0	1	1	796.3083	-0.445384	-0.444779	-0.0461051	4	-0.00123268	22.8278	2.05066e-05
2	0	0	1	1	797.7083	-0.473384	-0.473069	-0.0454268	4	-0.00129703	22.8278	2.149e-05
2	0	0	1	1	799.1079	-0.501376	-0.501022	-0.0438415	4	-0.00135972	22.8278	2.19655e-05
2	0	0	0	1	800.5073	-0.529361	-0.52904	-0.0418538	4	-0.00141986	22.8278	2.21424e-05
2	0	0	0	1	801.9069	-0.557354	-0.55705	-0.0398648	4	-0.00147718	22.8278	2.22067e-05
2	0	0	0	1	803.3061	-0.585339	-0.584822	-0.0381141	4	-0.00153187	22.8278	2.229e-05
2	1	0	0	0	804.5693	-0.589389	-0.58891	-0.0317404	4	-0.00157747	22.8278	1.86922e-05
2	1	0	0	0	805.9693	-0.561389	-0.561147	-0.0258793	4	-0.00161726	22.8278	1.45221e-05
2	1	0	0	0	807.3693	-0.533389	-0.533036	-0.0216549	4	-0.00165034	22.8278	1.15428e-05
2	1	0	0	0	808.7693	-0.505389	-0.505123	-0.0178976	4	-0.0016779	22.8278	9.04048e-06
2	1	0	0	0	810.1693	-0.477389	-0.477004	-0.014362	4	-0.00170037	22.8278	6.85073e-06
2	1	0	0	0	811.5693	-0.449389	-0.448992	-0.0111057	4	-0.00171807	22.8278	4.98639e-06
2	1	0	0	0	812.9693	-0.421389	-0.420737	-0.00819201	4	-0.00173142	22.8278	3.44668e-06
2	1	0	0	0	814.3693	-0.393389	-0.39302	-0.00575371	4	-0.00174102	22.8278	2.26132e-06
2	1	0	1	0	815.8043	-0.364689	-0.364279	-0.00384519	4	-0.00174774	22.8278	1.40072e-06
2	1	0	1	0	817.2043	-0.336689	-0.336276	-0.00248651	4	-0.00175202	22.8278	8.36151e-07
2	1	0	1	0	818.6043	-0.308689	-0.308175	-0.00156202	4	-0.00175473	22.8278	4.81374e-07
2	1	0	1	0	820.0043	-0.280689	-0.280263	-0.000954816	4	-0.00175638	22.8278	2.676e-07
2	1	0	1	0	821.4043	-0.252689	-0.252084	-0.000560847	4	-0.00175734	22.8278	1.41381e-07
2	1	0	1	0	822.8043	-0.224689	-0.224348	-0.000320116	4	-0.00175788	22.8278	7.18174e-08
2	1	0	1	0	824.2043	-0.196689	-0.196292	-0.000160734	4	-0.00175814	22.8278	3.15508e-08
2	1	0	1	0	825.6043	-0.168689	-0.168256	-5.85306e-05	4	-0.00175822	22.8278	9.84815e-09
2	1	0	0	0	827.0393	-0.139989	-0.13957	5.39954e-05	4	-0.00175819	22.8278	7.53616e-09
2	1	0	0	0	828.4393	-0.111989	-0.111541	0.000102281	4	-0.00175807	22.8278	1.14086e-08
2	1	0	0	0	829.8393	-0.0839885	-0.0835876	0.000173691	4	-0.00175787	22.8278	1.45184e-08
2	1	0	0	0	831.2393	-0.0559886	-0.0553897	0.000201168	4	-0.0017576	22.8278	1.11427e-08
2	1	0	0	0	832.6393	-0.0279885	-0.0276449	0.000232931	4	-0.00175728	22.8278	6.43935e-09
2	1	0	0	0	834.0393	1.41282e-05	0.000608352	0.000260149	4	-0.00175694	22.8278	1.58263e-10
2	1	0	0	0	835.4393	0.0280114	0.0283646	0.000291126	4	-0.00175654	22.8278	8.25768e-09
2	1	0	0	0	836.8393	0.0560114	0.0565141	0.000307901	4	-0.00175612	22.8278	1.74007e-08
2	1	0	0	0	838.2393	0.0840114	0.084444	0.000317606	4	-0.00175567	22.8278	2.681994E-008
2	1	0	0	0	839.6393	0.112011	0.112396	0.000338522	4	-0.0017552	22.8278	3.80485e-08
2	1	0	0	0	841.0393	0.140011	0.140355	0.000353107	4	-0.00175471	22.8278	4.95604e-08
2	1	0	0	0	842.4393	0.168011	0.168284	0.000367906	4	-0.0017542	22.8278	6.19127e-08
2	1	0	0	0	843.6068	0.191361	0.192397	0.000404461	4	-0.00175376	22.8278	7.78171e-08